Folder: EEE_465_Photovoltaics

Note: README.md
# EEE_465_Photovoltaics

File: 10_nm_AM15G_absorption.txt
# wavelength (nm)	 AM1.5G spectrum (W/m2)	 silicon absorption coefficient (/cm)
300	0.0311285	1.73e+06
310	0.651191	1.44e+06
320	2.05702	1.28e+06
330	4.08653	1.17e+06
340	4.53816	1.09e+06
350	5.17794	1.04e+06
360	5.38552	1.02e+06
370	6.70954	697000
380	6.62313	293000
390	6.7353	150000
400	9.94762	95200
410	11.6465	67400
420	12.2217	50000
430	11.2664	39200
440	13.4749	31100
450	14.994	25500
460	15.6438	21000
470	15.5419	17200
480	15.9801	14800
490	15.1089	12700
500	15.4331	11100
510	15.5883	9700
520	14.8923	8800
530	15.3168	7850
540	15.3398	7050
550	15.4161	6390
560	15.126	5780
570	14.9268	5320
580	15.0413	4880
590	14.4655	4490
600	14.6624	4140
610	14.7065	3810
620	14.4289	3520
630	14.0931	3270
640	14.4654	3040
650	14.0116	2810
660	13.5416	2580
670	14.144	2380
680	13.9411	2210
690	12.0751	2050
700	12.9142	1900
710	13.0625	1770
720	10.992	1660
730	11.1649	1540
740	12.2014	1420
750	12.3788	1300
760	7.85742	1190
770	10.8233	1100
780	11.6737	1010
790	11.1631	928
800	10.8283	850
810	10.3432	775
820	8.76292	707
830	9.30864	647
840	10.0061	591
850	9.60718	535
860	9.83572	480
870	9.40418	432
880	9.37635	383
890	9.03702	343
900	7.05333	306
910	6.75483	272
920	7.02427	240
930	4.64703	210
940	3.04698	183
950	3.35629	157
960	4.14342	134
970	6.10828	114
980	6.51902	95.9
990	7.42201	79.2
1000	7.34831	64
1010	7.18056	51.1
1020	6.99658	39.9
1030	6.88153	30.2
1040	6.72754	22.6
1050	6.53895	16.3
1060	6.33103	11.1
1070	6.11584	8
1080	5.96402	6.2
1090	5.62597	4.7
1100	4.99151	3.5
1110	3.88	2.7
1120	1.45506	2
1130	1.28918	1.5
1140	2.09839	1
1150	1.88935	0.68
1160	3.44948	0.42
1170	4.20325	0.22
1180	4.30031	0.065
1190	4.4164	0.036
1200	4.26827	0.022